Wavelength (micron)	F2 Net System Transmission with H Filter (BARR MAN114A; Gemini ID H_G0803)(1=100%)
1.3513	0.0000
1.3518	0.0001
1.3523	0.0000
1.3528	0.0001
1.3533	0.0001
1.3538	0.0001
1.3543	0.0000
1.3548	0.0001
1.3553	0.0000
1.3558	0.0000
1.3563	0.0001
1.3568	0.0001
1.3573	0.0001
1.3578	0.0001
1.3583	0.0000
1.3588	0.0001
1.3593	0.0001
1.3598	0.0000
1.3603	0.0001
1.3608	0.0001
1.3613	0.0001
1.3618	0.0001
1.3623	0.0000
1.3628	0.0000
1.3633	0.0001
1.3638	0.0000
1.3643	0.0000
1.3648	0.0001
1.3653	0.0000
1.3658	0.0000
1.3663	0.0001
1.3668	0.0000
1.3673	0.0001
1.3678	0.0000
1.3683	0.0001
1.3688	0.0000
1.3693	0.0000
1.3698	0.0001
1.3703	0.0001
1.3708	0.0000
1.3713	0.0000
1.3718	0.0000
1.3723	0.0000
1.3728	0.0000
1.3733	0.0000
1.3738	0.0001
1.3743	0.0000
1.3748	0.0000
1.3753	0.0000
1.3758	0.0000
1.3763	0.0001
1.3768	0.0000
1.3773	0.0000
1.3778	0.0001
1.3783	0.0000
1.3788	0.0001
1.3793	0.0001
1.3798	0.0001
1.3803	0.0000
1.3808	0.0001
1.3813	0.0000
1.3818	0.0000
1.3823	0.0001
1.3828	0.0000
1.3833	0.0000
1.3838	0.0000
1.3843	0.0000
1.3848	0.0000
1.3853	0.0001
1.3858	0.0001
1.3863	0.0000
1.3868	0.0001
1.3873	0.0001
1.3878	0.0000
1.3883	0.0000
1.3888	0.0001
1.3893	0.0000
1.3898	0.0000
1.3903	0.0000
1.3908	0.0000
1.3913	0.0000
1.3918	0.0000
1.3923	0.0001
1.3928	0.0001
1.3933	0.0001
1.3938	0.0001
1.3943	0.0000
1.3948	0.0001
1.3953	0.0000
1.3958	0.0000
1.3963	0.0000
1.3968	0.0000
1.3973	0.0000
1.3978	0.0000
1.3983	0.0001
1.3988	0.0001
1.3993	0.0001
1.3998	0.0000
1.4003	0.0000
1.4008	0.0001
1.4013	0.0000
1.4018	0.0000
1.4023	0.0000
1.4028	0.0001
1.4033	0.0000
1.4038	0.0001
1.4043	0.0001
1.4048	0.0000
1.4053	0.0000
1.4058	0.0001
1.4063	0.0001
1.4068	0.0001
1.4073	0.0000
1.4078	0.0001
1.4083	0.0000
1.4088	0.0000
1.4093	0.0001
1.4098	0.0001
1.4103	0.0001
1.4108	0.0001
1.4113	0.0001
1.4118	0.0001
1.4123	0.0001
1.4128	0.0000
1.4133	0.0001
1.4138	0.0001
1.4143	0.0000
1.4148	0.0001
1.4153	0.0001
1.4158	0.0001
1.4163	0.0001
1.4168	0.0000
1.4173	0.0001
1.4178	0.0001
1.4183	0.0001
1.4188	0.0000
1.4193	0.0000
1.4198	0.0000
1.4203	0.0000
1.4208	0.0001
1.4213	0.0001
1.4218	0.0001
1.4223	0.0001
1.4228	0.0000
1.4233	0.0001
1.4238	0.0001
1.4243	0.0001
1.4248	0.0001
1.4253	0.0001
1.4258	0.0001
1.4263	0.0001
1.4268	0.0001
1.4273	0.0001
1.4278	0.0001
1.4283	0.0001
1.4288	0.0000
1.4293	0.0001
1.4298	0.0001
1.4303	0.0001
1.4308	0.0001
1.4313	0.0001
1.4318	0.0001
1.4323	0.0001
1.4328	0.0001
1.4333	0.0001
1.4338	0.0001
1.4343	0.0002
1.4348	0.0001
1.4353	0.0002
1.4358	0.0001
1.4363	0.0001
1.4368	0.0002
1.4373	0.0002
1.4378	0.0002
1.4383	0.0002
1.4388	0.0002
1.4393	0.0002
1.4398	0.0002
1.4403	0.0002
1.4408	0.0002
1.4413	0.0002
1.4418	0.0002
1.4423	0.0003
1.4428	0.0003
1.4433	0.0003
1.4438	0.0003
1.4443	0.0003
1.4448	0.0003
1.4453	0.0003
1.4458	0.0003
1.4463	0.0004
1.4468	0.0004
1.4473	0.0005
1.4478	0.0005
1.4483	0.0005
1.4488	0.0005
1.4493	0.0006
1.4498	0.0006
1.4503	0.0007
1.4508	0.0007
1.4513	0.0008
1.4518	0.0009
1.4523	0.0009
1.4528	0.0010
1.4533	0.0011
1.4538	0.0012
1.4543	0.0013
1.4548	0.0014
1.4553	0.0015
1.4558	0.0017
1.4563	0.0018
1.4568	0.0019
1.4573	0.0021
1.4578	0.0023
1.4583	0.0025
1.4588	0.0027
1.4593	0.0030
1.4598	0.0031
1.4603	0.0034
1.4608	0.0037
1.4613	0.0040
1.4618	0.0044
1.4623	0.0048
1.4628	0.0052
1.4633	0.0055
1.4638	0.0059
1.4643	0.0065
1.4648	0.0070
1.4653	0.0074
1.4658	0.0080
1.4663	0.0084
1.4668	0.0091
1.4673	0.0098
1.4678	0.0106
1.4683	0.0113
1.4688	0.0121
1.4693	0.0131
1.4698	0.0141
1.4703	0.0153
1.4708	0.0166
1.4713	0.0179
1.4718	0.0195
1.4723	0.0210
1.4728	0.0228
1.4733	0.0248
1.4738	0.0273
1.4743	0.0301
1.4748	0.0326
1.4753	0.0357
1.4758	0.0393
1.4763	0.0429
1.4768	0.0474
1.4773	0.0534
1.4778	0.0590
1.4783	0.0658
1.4788	0.0730
1.4793	0.0820
1.4798	0.0923
1.4803	0.1040
1.4808	0.1172
1.4813	0.1316
1.4818	0.1471
1.4823	0.1678
1.4828	0.1870
1.4833	0.2125
1.4838	0.2387
1.4843	0.2675
1.4848	0.2956
1.4853	0.3264
1.4858	0.3587
1.4863	0.3953
1.4868	0.4346
1.4873	0.4665
1.4878	0.5040
1.4883	0.5373
1.4888	0.5691
1.4893	0.6010
1.4898	0.6291
1.4903	0.6529
1.4908	0.6698
1.4913	0.6904
1.4918	0.7005
1.4923	0.7170
1.4928	0.7269
1.4933	0.7308
1.4938	0.7403
1.4943	0.7466
1.4948	0.7458
1.4953	0.7521
1.4958	0.7527
1.4963	0.7566
1.4968	0.7590
1.4973	0.7540
1.4978	0.7565
1.4983	0.7414
1.4988	0.7397
1.4993	0.7458
1.4998	0.7436
1.5003	0.7493
1.5008	0.7475
1.5013	0.7494
1.5018	0.7514
1.5023	0.7563
1.5028	0.7569
1.5033	0.7607
1.5038	0.7562
1.5043	0.7595
1.5048	0.7585
1.5053	0.7566
1.5058	0.7523
1.5063	0.7548
1.5068	0.7533
1.5073	0.7521
1.5078	0.7500
1.5083	0.7485
1.5088	0.7475
1.5093	0.7457
1.5098	0.7445
1.5103	0.7403
1.5108	0.7430
1.5113	0.7394
1.5118	0.7429
1.5123	0.7386
1.5128	0.7428
1.5133	0.7424
1.5138	0.7395
1.5143	0.7439
1.5148	0.7466
1.5153	0.7433
1.5158	0.7440
1.5163	0.7413
1.5168	0.7462
1.5173	0.7434
1.5178	0.7450
1.5183	0.7505
1.5188	0.7508
1.5193	0.7484
1.5198	0.7534
1.5203	0.7535
1.5208	0.7516
1.5213	0.7561
1.5218	0.7530
1.5223	0.7644
1.5228	0.7625
1.5233	0.7608
1.5238	0.7595
1.5243	0.7539
1.5248	0.7536
1.5253	0.7529
1.5258	0.7510
1.5263	0.7411
1.5268	0.7461
1.5273	0.7461
1.5278	0.7443
1.5283	0.7491
1.5288	0.7493
1.5293	0.7541
1.5298	0.7503
1.5303	0.7547
1.5308	0.7583
1.5313	0.7539
1.5318	0.7579
1.5323	0.7572
1.5328	0.7532
1.5333	0.7571
1.5338	0.7538
1.5343	0.7544
1.5348	0.7525
1.5353	0.7569
1.5358	0.7550
1.5363	0.7605
1.5368	0.7610
1.5373	0.7595
1.5378	0.7647
1.5383	0.7656
1.5388	0.7704
1.5393	0.7673
1.5398	0.7716
1.5403	0.7628
1.5408	0.7688
1.5413	0.7713
1.5418	0.7732
1.5423	0.7750
1.5428	0.7778
1.5433	0.7795
1.5438	0.7810
1.5443	0.7864
1.5448	0.7872
1.5453	0.7847
1.5458	0.7896
1.5463	0.7801
1.5468	0.7839
1.5473	0.7872
1.5478	0.7903
1.5483	0.8070
1.5488	0.8094
1.5493	0.8045
1.5498	0.8043
1.5503	0.8063
1.5508	0.8046
1.5513	0.8029
1.5518	0.8010
1.5523	0.7897
1.5528	0.7904
1.5533	0.7909
1.5538	0.7924
1.5543	0.7966
1.5548	0.8000
1.5553	0.7991
1.5558	0.7945
1.5563	0.7981
1.5568	0.7967
1.5573	0.7957
1.5578	0.7947
1.5583	0.7900
1.5588	0.7900
1.5593	0.7899
1.5598	0.7887
1.5603	0.7889
1.5608	0.7882
1.5613	0.7871
1.5618	0.7870
1.5623	0.7855
1.5628	0.7878
1.5633	0.7831
1.5638	0.7814
1.5643	0.7835
1.5648	0.7782
1.5653	0.7794
1.5658	0.7772
1.5663	0.7682
1.5668	0.7669
1.5673	0.7666
1.5678	0.7652
1.5683	0.7672
1.5688	0.7620
1.5693	0.7635
1.5698	0.7586
1.5703	0.7544
1.5708	0.7567
1.5713	0.7525
1.5718	0.7552
1.5723	0.7626
1.5728	0.7595
1.5733	0.7550
1.5738	0.7510
1.5743	0.7449
1.5748	0.7409
1.5753	0.7351
1.5758	0.7370
1.5763	0.7279
1.5768	0.7247
1.5773	0.7251
1.5778	0.7281
1.5783	0.7285
1.5788	0.7312
1.5793	0.7272
1.5798	0.7310
1.5803	0.7272
1.5808	0.7308
1.5813	0.7282
1.5818	0.7284
1.5823	0.7360
1.5828	0.7386
1.5833	0.7341
1.5838	0.7345
1.5843	0.7342
1.5848	0.7344
1.5853	0.7351
1.5858	0.7351
1.5863	0.7296
1.5868	0.7355
1.5873	0.7337
1.5878	0.7370
1.5883	0.7427
1.5888	0.7447
1.5893	0.7469
1.5898	0.7456
1.5903	0.7458
1.5908	0.7503
1.5913	0.7508
1.5918	0.7592
1.5923	0.7761
1.5928	0.7758
1.5933	0.7768
1.5938	0.7774
1.5943	0.7773
1.5948	0.7781
1.5953	0.7747
1.5958	0.7793
1.5963	0.7730
1.5968	0.7778
1.5973	0.7791
1.5978	0.7798
1.5983	0.7770
1.5988	0.7783
1.5993	0.7800
1.5998	0.7846
1.6003	0.7814
1.6008	0.7825
1.6013	0.7871
1.6018	0.7836
1.6023	0.7842
1.6028	0.7853
1.6033	0.7857
1.6038	0.7865
1.6043	0.7906
1.6048	0.7863
1.6053	0.7870
1.6058	0.7909
1.6063	0.7833
1.6068	0.7883
1.6073	0.7881
1.6078	0.7848
1.6083	0.7865
1.6088	0.7873
1.6093	0.7884
1.6098	0.7898
1.6103	0.7937
1.6108	0.7942
1.6113	0.7942
1.6118	0.7905
1.6123	0.7988
1.6128	0.7940
1.6133	0.7940
1.6138	0.7946
1.6143	0.7938
1.6148	0.7907
1.6153	0.7953
1.6158	0.7912
1.6163	0.7992
1.6168	0.7950
1.6173	0.7976
1.6178	0.7938
1.6183	0.7962
1.6188	0.7917
1.6193	0.7953
1.6198	0.7903
1.6203	0.7900
1.6208	0.7931
1.6213	0.7878
1.6218	0.7881
1.6223	0.7909
1.6228	0.7853
1.6233	0.7853
1.6238	0.7879
1.6243	0.7796
1.6248	0.7771
1.6253	0.7808
1.6258	0.7810
1.6263	0.7720
1.6268	0.7778
1.6273	0.7801
1.6278	0.7790
1.6283	0.8044
1.6288	0.7982
1.6293	0.7983
1.6298	0.7911
1.6303	0.7889
1.6308	0.7890
1.6313	0.7822
1.6318	0.7798
1.6323	0.7736
1.6328	0.7692
1.6333	0.7718
1.6338	0.7699
1.6343	0.7656
1.6348	0.7650
1.6353	0.7679
1.6358	0.7637
1.6363	0.7660
1.6368	0.7650
1.6373	0.7614
1.6378	0.7642
1.6383	0.7632
1.6388	0.7592
1.6393	0.7628
1.6398	0.7592
1.6403	0.7591
1.6408	0.7560
1.6413	0.7573
1.6418	0.7619
1.6423	0.7626
1.6428	0.7633
1.6433	0.7606
1.6438	0.7655
1.6443	0.7666
1.6448	0.7641
1.6453	0.7689
1.6458	0.7695
1.6463	0.7705
1.6468	0.7713
1.6473	0.7718
1.6478	0.7728
1.6483	0.7769
1.6488	0.7766
1.6493	0.7733
1.6498	0.7768
1.6503	0.7735
1.6508	0.7711
1.6513	0.7757
1.6518	0.7764
1.6523	0.7701
1.6528	0.7727
1.6533	0.7787
1.6538	0.7762
1.6543	0.7886
1.6548	0.7847
1.6553	0.7878
1.6558	0.7871
1.6563	0.7899
1.6568	0.7906
1.6573	0.7852
1.6578	0.7833
1.6583	0.7704
1.6588	0.7719
1.6593	0.7727
1.6598	0.7736
1.6603	0.7747
1.6608	0.7715
1.6613	0.7768
1.6618	0.7780
1.6623	0.7783
1.6628	0.7827
1.6633	0.7788
1.6638	0.7827
1.6643	0.7897
1.6648	0.7837
1.6653	0.7860
1.6658	0.7808
1.6663	0.7825
1.6668	0.7779
1.6673	0.7800
1.6678	0.7775
1.6683	0.7729
1.6688	0.7717
1.6693	0.7738
1.6698	0.7687
1.6703	0.7642
1.6708	0.7647
1.6713	0.7685
1.6718	0.7636
1.6723	0.7639
1.6728	0.7643
1.6733	0.7605
1.6738	0.7657
1.6743	0.7691
1.6748	0.7645
1.6753	0.7689
1.6758	0.7650
1.6763	0.7646
1.6768	0.7684
1.6773	0.7643
1.6778	0.7650
1.6783	0.7653
1.6788	0.7677
1.6793	0.7644
1.6798	0.7682
1.6803	0.7669
1.6808	0.7634
1.6813	0.7661
1.6818	0.7655
1.6823	0.7654
1.6828	0.7640
1.6833	0.7598
1.6838	0.7631
1.6843	0.7554
1.6848	0.7564
1.6853	0.7604
1.6858	0.7569
1.6863	0.7550
1.6868	0.7532
1.6873	0.7556
1.6878	0.7621
1.6883	0.7739
1.6888	0.7724
1.6893	0.7712
1.6898	0.7663
1.6903	0.7730
1.6908	0.7676
1.6913	0.7661
1.6918	0.7684
1.6923	0.7558
1.6928	0.7561
1.6933	0.7610
1.6938	0.7569
1.6943	0.7572
1.6948	0.7612
1.6953	0.7580
1.6958	0.7589
1.6963	0.7660
1.6968	0.7614
1.6973	0.7611
1.6978	0.7616
1.6983	0.7614
1.6988	0.7609
1.6993	0.7606
1.6998	0.7607
1.7003	0.7642
1.7008	0.7602
1.7013	0.7596
1.7018	0.7592
1.7023	0.7637
1.7028	0.7627
1.7033	0.7582
1.7038	0.7620
1.7043	0.7674
1.7048	0.7648
1.7053	0.7623
1.7058	0.7589
1.7063	0.7531
1.7068	0.7516
1.7073	0.7493
1.7078	0.7513
1.7083	0.7352
1.7088	0.7394
1.7093	0.7400
1.7098	0.7401
1.7103	0.7405
1.7108	0.7406
1.7113	0.7438
1.7118	0.7403
1.7123	0.7405
1.7128	0.7364
1.7133	0.7415
1.7138	0.7386
1.7143	0.7428
1.7148	0.7398
1.7153	0.7440
1.7158	0.7442
1.7163	0.7448
1.7168	0.7444
1.7173	0.7445
1.7178	0.7448
1.7183	0.7445
1.7188	0.7483
1.7193	0.7441
1.7198	0.7436
1.7203	0.7445
1.7208	0.7440
1.7213	0.7438
1.7218	0.7444
1.7223	0.7406
1.7228	0.7382
1.7233	0.7406
1.7238	0.7452
1.7243	0.7465
1.7248	0.7475
1.7253	0.7514
1.7258	0.7483
1.7263	0.7525
1.7268	0.7521
1.7273	0.7493
1.7278	0.7532
1.7283	0.7563
1.7288	0.7559
1.7293	0.7513
1.7298	0.7545
1.7303	0.7501
1.7308	0.7531
1.7313	0.7524
1.7318	0.7482
1.7323	0.7510
1.7328	0.7468
1.7333	0.7502
1.7338	0.7489
1.7343	0.7449
1.7348	0.7447
1.7353	0.7446
1.7358	0.7446
1.7363	0.7410
1.7368	0.7453
1.7373	0.7453
1.7378	0.7415
1.7383	0.7486
1.7388	0.7450
1.7393	0.7480
1.7398	0.7469
1.7403	0.7423
1.7408	0.7424
1.7413	0.7424
1.7418	0.7456
1.7423	0.7478
1.7428	0.7458
1.7433	0.7469
1.7438	0.7405
1.7443	0.7385
1.7448	0.7330
1.7453	0.7317
1.7458	0.7308
1.7463	0.7230
1.7468	0.7237
1.7473	0.7280
1.7478	0.7241
1.7483	0.7316
1.7488	0.7337
1.7493	0.7279
1.7498	0.7302
1.7503	0.7215
1.7508	0.7243
1.7513	0.7233
1.7518	0.7219
1.7523	0.7140
1.7528	0.7179
1.7533	0.7171
1.7538	0.7133
1.7543	0.7173
1.7548	0.7162
1.7553	0.7154
1.7558	0.7116
1.7563	0.7147
1.7568	0.7102
1.7573	0.7107
1.7578	0.7096
1.7583	0.7161
1.7588	0.7099
1.7593	0.7111
1.7598	0.7057
1.7603	0.7036
1.7608	0.7007
1.7613	0.7012
1.7618	0.6939
1.7623	0.6813
1.7628	0.6836
1.7633	0.6809
1.7638	0.6759
1.7643	0.6859
1.7648	0.6751
1.7653	0.6695
1.7658	0.6662
1.7663	0.6581
1.7668	0.6493
1.7673	0.6394
1.7678	0.6293
1.7683	0.6155
1.7688	0.6076
1.7693	0.5927
1.7698	0.5814
1.7703	0.5676
1.7708	0.5538
1.7713	0.5420
1.7718	0.5238
1.7723	0.5094
1.7728	0.4916
1.7733	0.4760
1.7738	0.4590
1.7743	0.4428
1.7748	0.4261
1.7753	0.4082
1.7758	0.3911
1.7763	0.3776
1.7768	0.3562
1.7773	0.3376
1.7778	0.3194
1.7783	0.3029
1.7788	0.2851
1.7793	0.2698
1.7798	0.2558
1.7803	0.2378
1.7808	0.2240
1.7813	0.2104
1.7818	0.1974
1.7823	0.1858
1.7828	0.1745
1.7833	0.1629
1.7838	0.1511
1.7843	0.1416
1.7848	0.1316
1.7853	0.1239
1.7858	0.1156
1.7863	0.1073
1.7868	0.1001
1.7873	0.0929
1.7878	0.0860
1.7883	0.0814
1.7888	0.0758
1.7893	0.0708
1.7898	0.0650
1.7903	0.0604
1.7908	0.0563
1.7913	0.0527
1.7918	0.0494
1.7923	0.0460
1.7928	0.0427
1.7933	0.0401
1.7938	0.0375
1.7943	0.0351
1.7948	0.0332
1.7953	0.0310
1.7958	0.0291
1.7963	0.0272
1.7968	0.0255
1.7973	0.0239
1.7978	0.0226
1.7983	0.0211
1.7988	0.0198
1.7993	0.0185
1.7998	0.0172
1.8003	0.0161
1.8008	0.0154
1.8013	0.0144
1.8018	0.0135
1.8023	0.0129
1.8028	0.0120
1.8033	0.0114
1.8038	0.0107
1.8043	0.0101
1.8048	0.0096
1.8053	0.0089
1.8058	0.0084
1.8063	0.0079
1.8068	0.0075
1.8073	0.0071
1.8078	0.0067
1.8083	0.0062
1.8088	0.0059
1.8093	0.0056
1.8098	0.0052
1.8103	0.0050
1.8108	0.0048
1.8113	0.0045
1.8118	0.0043
1.8123	0.0041
1.8128	0.0038
1.8133	0.0037
1.8138	0.0035
1.8143	0.0033
1.8148	0.0031
1.8153	0.0028
1.8158	0.0028
1.8163	0.0026
1.8168	0.0025
1.8173	0.0024
1.8178	0.0023
1.8183	0.0022
1.8188	0.0020
1.8193	0.0019
1.8198	0.0018
1.8203	0.0017
1.8208	0.0016
1.8213	0.0016
1.8218	0.0014
1.8223	0.0014
1.8228	0.0014
1.8233	0.0013
1.8238	0.0012
1.8243	0.0012
1.8248	0.0011
1.8253	0.0011
1.8258	0.0010
1.8263	0.0009
1.8268	0.0009
1.8273	0.0009
1.8278	0.0008
1.8283	0.0008
1.8288	0.0008
1.8293	0.0007
1.8298	0.0007
1.8303	0.0007
1.8308	0.0006
1.8313	0.0006
1.8318	0.0006
1.8323	0.0006
1.8328	0.0006
1.8333	0.0005
1.8338	0.0005
1.8343	0.0005
1.8348	0.0004
1.8353	0.0004
1.8358	0.0004
1.8363	0.0004
1.8368	0.0004
1.8373	0.0004
1.8378	0.0004
1.8383	0.0003
1.8388	0.0003
1.8393	0.0003
1.8398	0.0003
1.8403	0.0003
1.8408	0.0003
1.8413	0.0003
1.8418	0.0003
1.8423	0.0003
1.8428	0.0003
1.8433	0.0002
1.8438	0.0002
1.8443	0.0002
1.8448	0.0002
1.8453	0.0002
1.8458	0.0002
1.8463	0.0002
1.8468	0.0002
1.8473	0.0001
1.8478	0.0002
1.8483	0.0002
1.8488	0.0002
1.8493	0.0002
1.8498	0.0002
1.8503	0.0002
1.8508	0.0002
1.8513	0.0002
1.8518	0.0002
1.8523	0.0002
1.8528	0.0001
1.8533	0.0001
1.8538	0.0002
1.8543	0.0001
1.8548	0.0001
1.8553	0.0001
1.8558	0.0001
1.8563	0.0001
1.8568	0.0001
1.8573	0.0001
1.8578	0.0001
1.8583	0.0001
1.8588	0.0001
1.8593	0.0001
1.8598	0.0001
1.8603	0.0001
1.8608	0.0001
1.8613	0.0001
1.8618	0.0001
1.8623	0.0001
1.8628	0.0001
1.8633	0.0001
1.8638	0.0001
1.8643	0.0001
1.8648	0.0001
1.8653	0.0001
1.8658	0.0001
1.8663	0.0001
1.8668	0.0001
1.8673	0.0001
1.8678	0.0001
1.8683	0.0001
1.8688	0.0001
1.8693	0.0001
1.8698	0.0001
1.8703	0.0001
1.8708	0.0001
1.8713	0.0001
1.8718	0.0001
1.8723	0.0001
1.8728	0.0000
1.8733	0.0001
1.8738	0.0001
1.8743	0.0001
1.8748	0.0001
1.8753	0.0001
1.8758	0.0001
1.8763	0.0001
1.8768	0.0001
1.8773	0.0000
1.8778	0.0001
1.8783	0.0000
1.8788	0.0001
1.8793	0.0000
1.8798	0.0001
1.8803	0.0001
1.8808	0.0001
1.8813	0.0001
1.8818	0.0001
1.8823	0.0001
1.8828	0.0000
1.8833	0.0001
1.8838	0.0000
1.8843	0.0000
1.8848	0.0000
1.8853	0.0000
1.8858	0.0001
1.8863	0.0000
1.8868	0.0001
1.8873	0.0001
1.8878	0.0001
1.8883	0.0001
1.8888	0.0001
1.8893	0.0000
1.8898	0.0000
1.8903	0.0000
1.8908	0.0001
1.8913	0.0000
1.8918	0.0001
1.8923	0.0001
1.8928	0.0001
1.8933	0.0000
1.8938	0.0000
1.8943	0.0001
1.8948	0.0001
1.8953	0.0000
1.8958	0.0000
1.8963	0.0001
